File: Physics mini projects/data/data_01.csv
Time t / s,Frequency f / Hz,Path s_A1 / cm,Relative pressure p_B1 / hPa,Volume V / cm^3,FFT V' / cm^3,absolute P (hPa),corrected V (cm3),temperature (K),Ideal pressures tmax (hPa),Ideal pressures tmin (hPa),,,,
0,0,5.16859,-18,146.271,166.613,982,273.597,271.386,1149.22,933.558,CONSTANT,127.326,,
0.002,1.953125,5.082185,-12,143.826,208.27,988,271.152,270.604,1159.58,941.976,T_max,317.598,V_max,295.382
0.004,3.90625,4.987925,-4,141.158,115.83,996,268.484,270.111,1171.1,951.336,T_min,257.998,V_min,150
0.006,5.859375,4.877955,3,138.046,61.7805,1003,265.372,268.857,1184.84,962.492,,,,
0.008,7.8125,4.767985,12,134.934,21.9938,1012,262.26,268.088,1198.9,973.914,T_max,,,
0.01,9.765625,4.66587,21,132.044,5.52994,1021,259.37,267.492,1212.25,984.765,P_max=,2096.15,,
0.012,11.71875,4.54019,31,128.487,4.25819,1031,255.813,266.407,1229.11,998.457,P_min=,1064.46,,
0.014,13.6719,4.41451,42,124.931,3.2885,1042,252.256,265.506,1246.44,1012.53,,,,
0.016,15.625,4.28883,53,121.374,2.76705,1053,248.7,264.526,1264.26,1027.02,T_min,,,
0.018,17.5781,4.14744,66,117.373,2.39126,1066,244.698,263.483,1284.94,1043.81,P_max=,1702.79,,
0.02,19.53125,4.013905,79,113.594,2.16122,1079,240.919,262.578,1305.09,1060.18,P_min=,864.706,,
0.022,21.4844,3.89608,93,110.259,2.00454,1093,237.585,262.303,1323.41,1075.06,,,,
0.024,23.4375,3.75469,108,106.258,1.85672,1108,233.583,261.425,1346.08,1093.48,,,,
0.026,25.3906,3.64472,123,103.146,1.8248,1123,230.471,261.434,1364.26,1108.24,,,,
0.028,27.34375,3.511185,140,99.3665,1.73068,1140,226.692,261.04,1387,1126.72,,,,
0.03,29.2969,3.39336,156,96.0321,1.70192,1156,223.358,260.81,1407.71,1143.54,,,,
0.032,31.25,3.25197,174,92.0308,1.54978,1174,219.357,260.126,1433.38,1164.4,,,,
0.034,33.2031,3.12629,192,88.474,1.55838,1192,215.8,259.832,1457.01,1183.59,,,,
0.036,35.15625,2.977045,211,84.2504,1.46734,1211,211.576,258.807,1486.09,1207.22,,,,
0.038,37.1094,2.867075,231,81.1382,1.46629,1231,208.464,259.211,1508.28,1225.24,,,,
0.04,39.0625,2.725685,252,77.1369,1.35748,1252,204.463,258.573,1537.8,1249.22,,,,
0.042,41.0156,2.600005,274,73.5801,1.34999,1274,200.906,258.54,1565.02,1271.33,,,,
0.044,42.96875,2.48218,297,70.2457,1.28865,1297,197.571,258.839,1591.44,1292.79,,,,
0.046,44.9219,2.348645,318,66.4667,1.22406,1318,193.792,257.998,1622.47,1318,,,,
0.048,46.875,2.23082,342,63.1322,1.15642,1342,190.458,258.176,1650.87,1341.07,,,,
0.05,48.8281,2.12085,368,60.0201,1.09005,1368,187.346,258.878,1678.3,1363.35,,,,
0.052,50.78125,2.02659,393,57.3525,1.07073,1393,184.678,259.855,1702.54,1383.05,,,,
0.054,52.7344,1.91662,417,54.2403,1.01954,1417,181.566,259.878,1731.72,1406.75,,,,
0.056,54.6875,1.80665,444,51.1282,0.979189,1444,178.454,260.29,1761.92,1431.28,,,,
0.058,56.6406,1.71239,472,48.4606,0.923162,1472,175.786,261.371,1788.66,1453,,,,
0.06,58.59375,1.61813,498,45.7931,0.901425,1498,173.119,261.952,1816.22,1475.39,,,,
0.062,60.5469,1.531725,525,43.3478,0.8370739,1525,170.674,262.906,1842.24,1496.53,,,,
0.064,62.5,1.468885,551,41.5694,0.790504,1551,168.895,264.602,1861.64,1512.29,,,,
0.066,64.4531,1.38248,580,39.1242,0.732297,1580,166.45,265.647,1888.99,1534.51,,,,
0.068,66.40625,1.30393,606,36.9012,0.677122,1606,164.227,266.413,1914.56,1555.28,,,,
0.07,68.3594,1.248945,634,35.3451,0.6591,1634,162.671,268.489,1932.87,1570.15,,,,
0.072,70.3125,1.19396,660,33.7891,0.612143,1660,161.115,270.152,1951.54,1585.32,,,,
0.074,72.2656,1.123265,687,31.7884,0.576292,1687,159.114,271.137,1976.08,1605.25,,,,
0.076,74.21875,1.076135,712,30.4546,0.514747,1712,157.78,272.848,1992.78,1618.82,,,,
0.078,76.1719,1.02115,736,28.8985,0.471535,1736,156.224,273.945,2012.63,1634.95,,,,
0.08,78.125,0.98973,760,28.0094,0.442933,1760,155.335,276.151,2024.15,1644.31,,,,
0.082,80.0781,0.9426,782,26.67558,0.375037,1782,154.001,277.202,2041.68,1658.55,,,,
0.084,82.03125,0.919035,804,26.0087,0.354659,1804,153.334,279.409,2050.56,1665.76,,,,
0.086,83.9844,0.887615,824,25.1195,0.27409,1824,152.445,280.869,2062.53,1675.48,,,,
0.088,85.9375,0.86405,842,24.4526,0.248,1842,151.778,282.4,2071.59,1682.84,,,,
0.09,87.8906,0.83263,858,23.5634,0.194507,1858,150.889,283.184,2083.8,1692.75,,,,
0.092,89.84375,0.83263,872,23.5634,0.165184,1872,150.889,285.318,2083.8,1692.75,,,,
0.094,91.7969,0.80121,884,22.6742,0.153732,1884,150,285.455,2096.15,1702.79,,,,
0.096,93.75,0.809065,894,22.8965,0.0995482,1894,150.222,287.395,2093.05,1700.27,,,,
0.098,95.7031,0.80121,902,22.6742,0.0825471,1902,150,288.182,2096.15,1702.79,,,,
0.1,97.65625,0.80121,907,22.6742,0.0352981,1907,150,288.939,2096.15,1702.79,,,,
0.102,99.6094,0.80121,910,22.6742,0.0473589,1910,150,289.394,2096.15,1702.79,,,,
0.104,101.5625,0.809065,912,22.8965,0.0590809,1912,150.222,290.126,2093.05,1700.27,,,,
0.106,103.516,0.81692,911,23.1188,0.0905454,1911,150.445,290.404,2089.95,1697.76,,,,
0.108,105.469,0.83263,908,23.5634,0.120894,1908,150.889,290.805,2083.8,1692.75,,,,
0.11,107.422,0.86405,904,24.4526,0.152464,1904,151.778,291.905,2071.59,1682.84,,,,
0.112,109.375,0.887615,897,25.1195,0.19061,1897,152.445,292.11,2062.53,1675.48,,,,
0.114,111.328,0.9426,890,26.67558,0.203911,1890,154.001,294.003,2041.68,1658.55,,,,
0.116,113.281,0.97402,881,27.5648,0.226573,1881,154.891,294.292,2029.96,1649.03,,,,
0.118,115.234,1.029005,870,29.1208,0.261178,1870,156.447,295.51,2009.77,1632.62,,,,
0.12,117.1875,1.08399,858,30.6769,0.273043,1858,158.003,296.534,1989.98,1616.54,,,,
0.122,119.141,1.138975,845,32.233,0.301277,1845,159.559,297.359,1970.57,1600.78,,,,
0.124,121.094,1.19396,832,33.7891,0.313461,1832,161.115,298.144,1951.54,1585.32,,,,
0.126,123.047,1.264655,817,35.7897,0.325666,1817,163.115,299.375,1927.6,1565.87,,,,
0.128,125,1.327495,801,37.5681,0.348639,1801,164.894,299.974,1906.82,1548.99,,,,
0.13,126.953,1.4139,785,40.01337,0.360637,1785,167.339,301.718,1878.95,1526.35,,,,
0.132,128.906,1.500305,767,42.4586,0.360165,1767,169.784,303.039,1851.89,1504.37,,,,
0.134,130.859,1.578855,749,44.6816,0.400034,1749,172.007,303.88,1827.96,1484.93,,,,
0.136,132.8125,1.66526,732,47.1269,0.385811,1732,174.453,305.204,1802.34,1464.11,,,,
0.138,134.766,1.767375,710,50.0167,0.429082,1710,177.342,306.319,1772.97,1440.26,,,,
0.14,136.719,1.861635,689,52.6843,0.402453,1689,180.01,307.108,1746.69,1418.91,,,,
0.142,138.672,1.971605,669,55.7964,0.423878,1669,183.122,308.718,1717.01,1394.8,,,,
0.144,140.625,2.08943,645,59.1309,0.424444,1645,186.457,309.819,1686.3,1369.85,,,,
0.146,142.578,2.1994,623,62.24302,0.424779,1623,189.569,310.778,1658.62,1347.37,,,,
0.148,144.531,2.317225,601,65.5775,0.442331,1601,192.903,311.958,1629.95,1324.08,,,,
0.15,146.484,2.427195,578,68.6896,0.42231,1578,196.015,312.437,1604.07,1303.05,,,,
0.152,148.4375,2.584295,553,73.1355,0.41774,1553,200.461,314.461,1568.49,1274.15,,,,
0.154,150.391,2.694265,529,76.2477,0.404425,1529,203.573,314.408,1544.51,1254.67,,,,
0.156,152.344,2.84351,507,80.4713,0.410508,1507,207.797,316.313,1513.12,1229.17,,,,
0.158,154.297,2.961335,482,83.8058,0.410081,1482,211.132,316.058,1489.22,1209.76,,,,
0.16,156.25,3.102725,457,87.8071,0.400675,1457,215.133,316.615,1461.53,1187.26,,,,
0.162,158.203,3.22055,434,91.1416,0.383455,1434,218.467,316.447,1439.22,1169.14,,,,
0.164,160.156,3.369795,411,95.3652,0.379712,1411,222.691,317.391,1411.92,1146.96,,,,
0.166,162.109,3.511185,387,99.3665,0.349337,1387,226.692,317.598,1387,1126.72,,,,
0.168,164.0625,3.636865,362,102.923,0.370712,1362,230.249,316.767,1365.57,1109.31,,,,
0.17,166.016,3.762545,339,106.48,0.325807,1339,233.806,316.228,1344.8,1092.44,,,,
0.172,167.969,3.89608,317,110.259,0.334106,1317,237.585,316.06,1323.41,1075.06,,,,
0.174,169.922,4.02176,294,113.816,0.275097,1294,241.142,315.189,1303.89,1059.21,,,,
0.176,171.875,4.14744,271,117.373,0.315839,1271,244.698,314.153,1284.94,1043.81,,,,
0.178,173.828,4.27312,250,120.929,0.273164,1250,248.255,313.453,1266.53,1028.85,,,,
0.18,175.781,4.41451,228,124.931,0.276349,1228,252.256,312.9,1246.44,1012.53,,,,
0.182,177.734,4.54019,207,128.487,0.223691,1207,255.813,311.885,1229.11,998.457,,,,
0.184,179.6875,4.658015,186,131.822,0.241804,1186,259.148,310.454,1213.29,985.61,,,,
0.186,181.641,4.767985,167,134.934,0.213741,1167,262.26,309.149,1198.9,973.914,,,,
0.188,183.594,4.877955,146,138.046,0.214893,1146,265.372,307.188,1184.84,962.492,,,,
0.19,185.547,4.987925,127,141.158,0.14719,1127,268.484,305.638,1171.1,951.336,,,,
0.192,187.5,5.082185,110,143.826,0.142715,1110,271.152,304.018,1159.58,941.976,,,,
0.194,189.453,5.176445,93,146.493,0.0918014,1093,273.819,302.307,1148.28,932.8,,,,
0.196,191.406,5.254995,77,148.716,0.0892166,1077,276.042,300.3,1139.04,925.288,,,,
0.198,193.359,5.349255,62,151.384,0.0674078,1062,278.71,298.979,1128.14,916.432,,,,
0.2,195.3125,5.43566,48,153.829,0.0485301,1048,281.155,297.627,1118.32,908.461,,,,
0.202,197.266,5.506355,35,155.83,0.0421556,1035,283.156,296.026,1110.42,902.043,,,,
0.204,199.219,5.569195,24,157.608,0.0324291,1024,284.934,294.72,1103.49,896.413,,,,
0.206,201.172,5.632035,14,159.387,0.0393481,1014,286.712,293.663,1096.65,890.852,,,,
0.208,203.125,5.68702,4,160.943,0.046512,1004,288.268,292.345,1090.73,886.044,,,,
0.21,205.078,5.742005,-6,162.499,0.06160841,994,289.824,290.996,1084.87,881.286,,,,
0.212,207.031,5.79699,-14,164.055,0.0782885,986,291.381,290.203,1079.08,876.58,,,,
0.214,208.984,5.82841,-21,164.944,0.101927,979,292.27,289.022,1075.79,873.913,,,,
0.216,210.9375,5.851975,-28,165.611,0.139832,972,292.937,287.611,1073.35,871.924,,,,
0.218,212.891,5.883395,-34,166.5,0.152103,966,293.826,286.703,1070.1,869.285,,,,
0.22,214.844,5.90696,-40,167.167,0.160013,960,294.493,285.569,1067.67,867.316,,,,
0.222,216.797,5.914815,-45,167.389,0.158285,955,294.715,284.296,1066.87,866.662,,,,
0.224,218.75,5.93838,-49,168.056,0.186411,951,295.382,283.746,1064.46,864.706,,,,
0.226,220.703,5.93838,-52,168.056,0.22206,948,295.382,282.851,1064.46,864.706,,,,
0.228,222.656,5.93838,-55,168.056,0.221619,945,295.382,281.955,1064.46,864.706,,,,
0.23,224.609,5.93838,-57,168.056,0.247673,943,295.382,281.359,1064.46,864.706,,,,
0.232,226.5625,5.90696,-58,167.167,0.241939,942,294.493,280.214,1067.67,867.316,,,,
0.234,228.516,5.90696,-59,167.167,0.268679,941,294.493,279.917,1067.67,867.316,,,,
0.236,230.469,5.883395,-59,166.5,0.280531,941,293.826,279.283,1070.1,869.285,,,,
0.238,232.422,5.82841,-58,164.944,0.302869,942,292.27,278.099,1075.79,873.913,,,,
0.24,234.375,5.79699,-56,164.055,0.314915,944,291.381,277.842,1079.08,876.58,,,,
0.242,236.328,5.74986,-54,162.721,0.325785,946,290.047,277.156,1084.04,880.611,,,,
0.244,238.281,5.68702,-51,160.943,0.327073,949,288.268,276.33,1090.73,886.044,,,,
0.246,240.234,5.632035,-47,159.387,0.336724,953,286.712,275.997,1096.65,890.852,,,,
0.248,242.1875,5.569195,-43,157.608,0.329074,957,284.934,275.436,1103.49,896.413,,,,
0.25,244.141,5.490645,-39,155.385,0.332948,961,282.711,274.43,1112.17,903.461,,,,
0.252,246.094,5.43566,-34,153.829,0.318303,966,281.155,274.339,1118.32,908.461,,,,
0.254,248.047,5.3414,-29,151.162,0.33733,971,278.487,273.143,1129.04,917.163,,,,
0.256,250,5.254995,-24,148.716,0.22821,976,276.042,272.138,1139.04,925.288,,,,
0.258,,5.176445,-17,146.493,,983,273.819,271.883,1148.28,932.8,,,,
0.26,,5.082185,-11,143.826,,989,271.152,270.878,1159.58,941.976,,,,
0.262,,4.972215,-4,140.714,,996,268.039,269.664,1173.04,952.913,,,,
0.264,,4.88581,3,138.268,,1003,265.594,269.082,1183.84,961.687,,,,
0.266,,4.767985,12,134.934,,1012,262.26,268.088,1198.9,973.914,,,,
0.268,,4.658015,20,131.822,,1020,259.148,267.001,1213.29,985.61,,,,
0.27,,4.54019,30,128.487,,1030,255.813,266.149,1229.11,998.457,,,,
0.272,,4.41451,41,124.931,,1041,252.256,265.251,1246.44,1012.53,,,,
0.274,,4.296685,53,121.596,,1053,248.922,264.762,1263.14,1026.1,,,,
0.276,,4.155295,65,117.595,,1065,244.921,263.475,1283.77,1042.86,,,,
0.278,,4.029615,78,114.038,,1078,241.364,262.818,1302.69,1058.23,,,,
0.28,,3.89608,92,110.259,,1092,237.585,262.063,1323.41,1075.06,,,,
0.282,,3.762545,107,106.48,,1107,233.806,261.437,1344.8,1092.44,,,,
0.284,,3.64472,122,103.146,,1122,230.471,261.201,1364.26,1108.24,,,,
0.286,,3.511185,139,99.3665,,1139,226.692,260.811,1387,1126.72,,,,
0.288,,3.385505,156,95.8098,,1156,223.136,260.55,1409.11,1144.68,,,,
0.29,,3.244115,173,91.8085,,1173,219.134,259.641,1434.84,1165.58,,,,
0.292,,3.102725,191,87.8071,,1191,215.133,258.811,1461.53,1187.26,,,,
0.294,,2.9849,210,84.47267,,1210,211.798,258.865,1484.54,1205.95,,,,
0.296,,2.867075,231,81.1382,,1231,208.464,259.211,1508.28,1225.24,,,,
0.298,,2.71783,251,76.9146,,1251,204.24,258.086,1539.47,1250.58,,,,
0.3,,2.60786,271,73.8024,,1271,201.128,258.216,1563.29,1269.93,,,,
0.302,,2.490035,294,70.468,,1294,197.794,258.53,1589.65,1291.34,,,,
0.304,,2.348645,319,66.4667,,1319,193.792,258.194,1622.47,1318,,,,
0.306,,2.23082,342,63.1322,,1342,190.458,258.176,1650.87,1341.07,,,,
0.308,,2.12085,366,60.0201,,1366,187.346,258.499,1678.3,1363.35,,,,
0.31,,2.034445,390,57.5748,,1390,184.901,259.608,1700.49,1381.38,,,,
0.312,,1.91662,416,54.2403,,1416,181.566,259.695,1731.72,1406.75,,,,
0.314,,1.798795,442,50.9059,,1442,178.232,259.606,1764.12,1433.07,,,,
0.316,,1.720245,470,48.6829,,1470,176.009,261.346,1786.4,1451.17,,,,
0.318,,1.63384,497,46.2377,,1497,173.563,262.449,1811.57,1471.61,,,,
0.32,,1.55529,523,44.0147,,1523,171.34,263.587,1835.07,1490.71,,,,
0.322,,1.468885,551,41.5694,,1551,168.895,264.602,1861.64,1512.29,,,,
0.324,,1.38248,578,39.1242,,1578,166.45,265.311,1888.99,1534.51,,,,
0.326,,1.30393,605,36.9012,,1605,164.227,266.247,1914.56,1555.28,,,,
0.328,,1.248945,633,35.3451,,1633,162.671,268.325,1932.87,1570.15,,,,
0.33,,1.186105,659,33.5668,,1659,160.893,269.617,1954.24,1587.51,,,,
0.332,,1.13112,685,32.0107,,1685,159.336,271.194,1973.32,1603.01,,,,
0.334,,1.08399,711,30.6769,,1711,158.003,273.073,1989.98,1616.54,,,,
0.336,,1.029005,737,29.1208,,1737,156.447,274.493,2009.77,1632.62,,,,
0.338,,0.98973,760,28.0094,,1760,155.335,276.151,2024.15,1644.31,,,,
0.34,,0.9426,782,26.67558,,1782,154.001,277.202,2041.68,1658.55,,,,
0.342,,0.919035,804,26.0087,,1804,153.334,279.409,2050.56,1665.76,,,,
0.344,,0.887615,825,25.1195,,1825,152.445,281.023,2062.53,1675.48,,,,
0.346,,0.86405,842,24.4526,,1842,151.778,282.4,2071.59,1682.84,,,,
0.348,,0.83263,857,23.5634,,1857,150.889,283.032,2083.8,1692.75,,,,
0.35,,0.83263,872,23.5634,,1872,150.889,285.318,2083.8,1692.75,,,,
0.352,,0.80121,884,22.6742,,1884,150,285.455,2096.15,1702.79,,,,
0.354,,0.80121,894,22.6742,,1894,150,286.97,2096.15,1702.79,,,,
0.356,,0.80121,901,22.6742,,1901,150,288.03,2096.15,1702.79,,,,
0.358,,0.80121,906,22.6742,,1906,150,288.788,2096.15,1702.79,,,,
0.36,,0.80121,908,22.6742,,1908,150,289.091,2096.15,1702.79,,,,
0.362,,0.809065,910,22.8965,,1910,150.222,289.823,2093.05,1700.27,,,,
0.364,,0.81692,910,23.1188,,1910,150.445,290.252,2089.95,1697.76,,,,
0.366,,0.83263,907,23.5634,,1907,150.889,290.652,2083.8,1692.75,,,,
0.368,,0.86405,903,24.4526,,1903,151.778,291.752,2071.59,1682.84,,,,
0.37,,0.887615,897,25.1195,,1897,152.445,292.11,2062.53,1675.48,,,,
0.372,,0.9426,889,26.67558,,1889,154.001,293.847,2041.68,1658.55,,,,
0.374,,0.97402,880,27.5648,,1880,154.891,294.136,2029.96,1649.03,,,,
0.376,,1.029005,869,29.1208,,1869,156.447,295.352,2009.77,1632.62,,,,
0.378,,1.076135,857,30.4546,,1857,157.78,295.958,1992.78,1618.82,,,,
0.38,,1.138975,845,32.233,,1845,159.559,297.359,1970.57,1600.78,,,,
0.382,,1.19396,831,33.7891,,1831,161.115,297.981,1951.54,1585.32,,,,
0.384,,1.27251,816,36.012,,1816,163.338,299.618,1924.98,1563.74,,,,
0.386,,1.33535,801,37.7904,,1801,165.116,300.378,1904.25,1546.9,,,,
0.388,,1.4139,784,40.01337,,1784,167.339,301.548,1878.95,1526.35,,,,
0.39,,1.49245,767,42.2363,,1767,169.562,302.643,1854.32,1506.34,,,,
0.392,,1.578855,749,44.6816,,1749,172.007,303.88,1827.96,1484.93,,,,
0.394,,1.66526,730,47.1269,,1730,174.453,304.852,1802.34,1464.11,,,,
0.396,,1.77523,709,50.239,,1709,177.565,306.523,1770.75,1438.45,,,,
0.398,,1.861635,689,52.6843,,1689,180.01,307.108,1746.69,1418.91,,,,
0.4,,1.971605,668,55.7964,,1668,183.122,308.533,1717.01,1394.8,,,,
0.402,,2.08943,645,59.1309,,1645,186.457,309.819,1686.3,1369.85,,,,
0.404,,2.1994,622,62.24302,,1622,189.569,310.586,1658.62,1347.37,,,,
0.406,,2.317225,601,65.5775,,1601,192.903,311.958,1629.95,1324.08,,,,
0.408,,2.43505,577,68.9119,,1577,196.238,312.593,1602.25,1301.58,,,,
0.41,,2.57644,555,72.9133,,1555,200.239,314.517,1570.23,1275.57,,,,
0.412,,2.68641,531,76.0254,,1531,203.351,314.475,1546.2,1256.05,,,,
0.414,,2.84351,507,80.4713,,1507,207.797,316.313,1513.12,1229.17,,,,
0.416,,2.961335,483,83.8058,,1483,211.132,316.271,1489.22,1209.76,,,,
0.418,,3.102725,458,87.8071,,1458,215.133,316.832,1461.53,1187.26,,,,
0.42,,3.22055,435,91.1416,,1435,218.467,316.667,1439.22,1169.14,,,,
0.422,,3.369795,411,95.3652,,1411,222.691,317.391,1411.92,1146.96,,,,
0.424,,3.511185,387,99.3665,,1387,226.692,317.598,1387,1126.72,,,,
0.426,,3.636865,364,102.923,,1364,230.249,317.232,1365.57,1109.31,,,,
0.428,,3.762545,340,106.48,,1340,233.806,316.464,1344.8,1092.44,,,,
0.43,,3.888225,317,110.037,,1317,237.363,315.764,1324.65,1076.07,,,,
0.432,,4.029615,293,114.038,,1293,241.364,315.236,1302.69,1058.23,,,,
0.434,,4.14744,270,117.373,,1270,244.698,313.906,1284.94,1043.81,,,,
0.436,,4.27312,249,120.929,,1249,248.255,313.203,1266.53,1028.85,,,,
0.438,,4.41451,227,124.931,,1227,252.256,312.645,1246.44,1012.53,,,,
0.44,,4.532335,207,128.265,,1207,255.591,311.614,1230.18,999.325,,,,
0.442,,4.658015,186,131.822,,1186,259.148,310.454,1213.29,985.61,,,,
0.444,,4.77584,167,135.156,,1167,262.482,309.411,1197.88,973.089,,,,
0.446,,4.88581,147,138.268,,1147,265.594,307.714,1183.84,961.687,,,,
0.448,,4.98007,128,140.936,,1128,268.262,305.656,1172.07,952.124,,,,
0.45,,5.09004,111,144.048,,1111,271.374,304.542,1158.63,941.205,,,,
0.452,,5.176445,94,146.493,,1094,273.819,302.584,1148.28,932.8,,,,
0.454,,5.254995,78,148.716,,1078,276.042,300.579,1139.04,925.288,,,,
0.456,,5.349255,63,151.384,,1063,278.71,299.261,1128.14,916.432,,,,
0.458,,5.427805,48,153.607,,1048,280.933,297.391,1119.21,909.18,,,,
0.46,,5.51421,35,156.052,,1035,283.3779,296.259,1109.55,901.335,,,,
0.462,,5.584905,24,158.053,,1024,285.379,295.179,1101.77,895.016,,,,
0.464,,5.632035,13,159.387,,1013,286.712,293.373,1096.65,890.852,,,,
0.466,,5.694875,3,161.165,,1003,288.491,292.279,1089.89,885.361,,,,
0.468,,5.742005,-7,162.499,,993,289.824,290.703,1084.87,881.286,,,,
0.47,,5.79699,-15,164.055,,985,291.381,289.909,1079.08,876.58,,,,
0.472,,5.836265,-23,165.166,,977,292.492,288.651,1074.98,873.249,,,,
0.474,,5.851975,-30,165.611,,970,292.937,287.019,1073.35,871.924,,,,
0.476,,5.883395,-36,166.5,,964,293.826,286.109,1070.1,869.285,,,,
0.478,,5.914815,-42,167.389,,958,294.715,285.189,1066.87,866.662,,,,
0.48,,5.914815,-47,167.389,,953,294.715,283.7,1066.87,866.662,,,,
0.482,,5.93838,-51,168.056,,949,295.382,283.149,1064.46,864.706,,,,
0.484,,5.93838,-54,168.056,,946,295.382,282.254,1064.46,864.706,,,,
0.486,,5.93838,-57,168.056,,943,295.382,281.359,1064.46,864.706,,,,
0.488,,5.93838,-59,168.056,,941,295.382,280.762,1064.46,864.706,,,,
0.49,,5.914815,-61,167.389,,939,294.715,279.533,1066.87,866.662,,,,
0.492,,5.90696,-61,167.167,,939,294.493,279.322,1067.67,867.316,,,,
0.494,,5.87554,-61,166.278,,939,293.604,278.479,1070.91,869.943,,,,
0.496,,5.82841,-59,164.944,,941,292.27,277.804,1075.79,873.913,,,,
0.498,,5.79699,-58,164.055,,942,291.381,277.253,1079.08,876.58,,,,
0.5,,5.742005,-55,162.499,,945,289.824,276.651,1084.87,881.286,,,,